trial	block	wav_file	wav_file2	freq1	freq2	distance	abs_dist	RT	same_diff	accuracy
1	1	392.0-0.wav	415.0-0.wav	392	415	100	-100	487	1	1
2	1	539.0-2.wav	554.0-0.wav	539	554	50	-50	377	0	0
3	1	334.75-3.wav	349.0-0.wav	334.75	349	75	-75	367	2	1
4	1	330.0-0.wav	330.0-0.wav	330	330	0	0	254	2	0
5	1	220.0-0.wav	220.0-0.wav	220	220	0	0	89	1	0
6	1	487.0-1.wav	494.0-0.wav	487	494	25	-25	2	0	0
										
										
										
										
										
										
										
										
										
										
										
										
										
										
										
										
										
										
										
										
										
										
										
										
										
										
										
										
										
										
										
										
										
										
										
										
										
										
										
										
										
										
										
										
										
										
										
										
										
										
										
										
										
										
										
										
										
										
										
										
										
										
										
										
										
										
										
										
										
										
										
										
										
										
										
										
										
										
										
										
										
										
										
										
										
										
										
										
										
										
										
										
										
										
										
										
										
										
										
										
										
										
										
										
										
										
										
										
										
										
										
										
										
										
										
										
										
										
										
										
										
										
										
										
										
										
										
										
										
										
										
										
										
										
										
										
										
										
										
										
										
										
										
										
										
										
										
										
										
										
										
										
										
										
										
										
										
										
										
										
										
										
										
										
										
										
										
										
										
										
										
										
										
										
										
										
										
										
										
										
										
										
										
										
										
										
										
										
										
										
										
										
										
										
										
										
										
										
										
										
										
										
										
										
										
										
										
										
										
										
										
										
										
										
										
										
										
										
										
										
										
										
										
										
										
										
										
										
										
										
										
										
										
										
										
										
										
										
										
										
										
										
										
										
										
										
										
										
										
										
										
										
										
										
										
										
										
										
										
										
										
										
										
										
										
										
										
										
										
										
										
										
										
										
										
										
										
										
										
										
										
										
										
										
										
										
										
										
										
										
										
										
										
										
										
										
										
										
										
										
