trial	block	wav_file	wav_file2	freq1	freq2	distance	abs_dist	RT	same_diff	accuracy
1	1	440.0-0.wav	446.5-3.wav	440	446.5	25	25	1353	1	1
2	1	240.0-2.wav	233.0-0.wav	240	233	50	50	713	2	1
3	1	269.5-2.wav	277.0-0.wav	269.5	277	50	-50	682	0	0
4	1	392.0-0.wav	397.75-3.wav	392	397.75	25	25	1189	0	0
5	1	473.0-3.wav	466.0-0.wav	473	466	25	25	1203	1	1
6	1	415.0-0.wav	397.75-3.wav	415	397.75	75	-75	681	2	1
										
										
										
										
										
										
										
										
										
										
										
										
										
										
										
										
										
										
										
										
										
										
										
										
										
										
										
										
										
										
										
										
										
										
										
										
										
										
										
										
										
										
										
										
										
										
										
										
										
										
										
										
										
										
										
										
										
										
										
										
										
										
										
										
										
										
										
										
										
										
										
										
										
										
										
										
										
										
										
										
										
										
										
										
										
										
										
										
										
										
										
										
										
										
										
										
										
										
										
										
										
										
										
										
										
										
										
										
										
										
										
										
										
										
										
										
										
										
										
										
										
										
										
										
										
										
										
										
										
										
										
										
										
										
										
										
										
										
										
										
										
										
										
										
										
										
										
										
										
										
										
										
										
										
										
										
										
										
										
										
										
										
										
										
										
										
										
										
										
										
										
										
										
										
										
										
										
										
										
										
										
										
										
										
										
										
										
										
										
										
										
										
										
										
										
										
										
										
										
										
										
										
										
										
										
										
										
										
										
										
										
										
										
										
										
										
										
										
										
										
										
										
										
										
										
										
										
										
										
										
										
										
										
										
										
										
										
										
										
										
										
										
										
										
										
										
										
										
										
										
										
										
										
										
										
										
										
										
										
										
										
										
										
										
										
										
										
										
										
										
										
										
										
										
										
										
										
										
										
										
										
										
										
										
										
										
										
										
										
										
										
										
										
										
										
										
										
										
										
										
