trial	block	wav_file	wav_file2	freq1	freq2	distance	abs_dist	RT	same_diff	accuracy
1	1	524.0-0.wav	524.0-0.wav	524	524	0	0	716	2	0
2	1	220.0-0.wav	211.0-3.wav	220	211	75	-75	395	2	1
3	1	354.25-3.wav	370.0-0.wav	354.25	370	75	-75	279	2	1
4	1	311.0-0.wav	311.0-0.wav	311	311	0	0	241	2	0
5	1	494.0-0.wav	494.0-0.wav	494	494	0	0	277	2	0
6	1	524.0-0.wav	554.0-0.wav	524	554	100	-100	224	2	1
										
										
										
										
										
										
										
										
										
										
										
										
										
										
										
										
										
										
										
										
										
										
										
										
										
										
										
										
										
										
										
										
										
										
										
										
										
										
										
										
										
										
										
										
										
										
										
										
										
										
										
										
										
										
										
										
										
										
										
										
										
										
										
										
										
										
										
										
										
										
										
										
										
										
										
										
										
										
										
										
										
										
										
										
										
										
										
										
										
										
										
										
										
										
										
										
										
										
										
										
										
										
										
										
										
										
										
										
										
										
										
										
										
										
										
										
										
										
										
										
										
										
										
										
										
										
										
										
										
										
										
										
										
										
										
										
										
										
										
										
										
										
										
										
										
										
										
										
										
										
										
										
										
										
										
										
										
										
										
										
										
										
										
										
										
										
										
										
										
										
										
										
										
										
										
										
										
										
										
										
										
										
										
										
										
										
										
										
										
										
										
										
										
										
										
										
										
										
										
										
										
										
										
										
										
										
										
										
										
										
										
										
										
										
										
										
										
										
										
										
										
										
										
										
										
										
										
										
										
										
										
										
										
										
										
										
										
										
										
										
										
										
										
										
										
										
										
										
										
										
										
										
										
										
										
										
										
										
										
										
										
										
										
										
										
										
										
										
										
										
										
										
										
										
										
										
										
										
										
										
										
										
										
										
										
										
										
										
										
										
										
										
										
										
										
										
										
										
										
										
